File: Chapter 6/data/raw_cycling_data/JCDREAM_BatteryCorpus_0cycles_Cell51 - 001.csv
Cyc#,Step,TestTime(s),StepTime(s),Capacity(Ah),Current(A),Voltage(V),DPT Time
0,1,0.0,0.0,0.0,0.0,3.701,8/8/2020 18:52
0,1,24.0,24.0,0.0,0.0,3.699,8/8/2020 18:53
0,1,48.0,48.0,0.0,0.0,3.699,8/8/2020 18:53
0,3,88.68,20.15,0.004,0.75,3.734,8/8/2020 18:54
0,3,328.68,260.15,0.054,0.75,3.786,8/8/2020 18:58
0,3,568.68,500.15,0.104,0.75,3.829,8/8/2020 19:02
0,3,808.68,740.15,0.154,0.75,3.871,8/8/2020 19:06
0,3,1048.68,980.15,0.204,0.75,3.907,8/8/2020 19:10
0,3,1288.68,1220.15,0.254,0.75,3.935,8/8/2020 19:14
0,3,1528.68,1460.15,0.304,0.75,3.959,8/8/2020 19:18
0,3,1768.68,1700.15,0.354,0.75,3.982,8/8/2020 19:22
0,3,2008.68,1940.15,0.404,0.75,4.006,8/8/2020 19:26
0,3,2248.68,2180.15,0.454,0.75,4.031,8/8/2020 19:30
0,3,2488.68,2420.15,0.504,0.75,4.059,8/8/2020 19:34
0,3,2728.68,2660.15,0.554,0.75,4.086,8/8/2020 19:38
0,3,2968.68,2900.15,0.604,0.75,4.11,8/8/2020 19:42
0,3,3208.68,3140.15,0.654,0.75,4.135,8/8/2020 19:46
0,3,3448.68,3380.15,0.704,0.75,4.162,8/8/2020 19:50
0,3,3688.68,3620.15,0.754,0.75,4.194,8/8/2020 19:54
0,4,3915.1,190.03,0.791,0.401,4.2,8/8/2020 19:57
0,4,4155.1,430.03,0.812,0.232,4.2,8/8/2020 20:01
0,4,4395.1,670.03,0.824,0.141,4.2,8/8/2020 20:05
0,6,4608.43,20.06,0.004,-0.75,4.164,8/8/2020 20:09
0,6,4848.43,260.06,0.054,-0.75,4.105,8/8/2020 20:13
0,6,5088.43,500.06,0.104,-0.75,4.067,8/8/2020 20:17
0,6,5328.43,740.06,0.154,-0.75,4.036,8/8/2020 20:21
0,6,5568.43,980.06,0.204,-0.75,4.01,8/8/2020 20:25
0,6,5808.43,1220.06,0.254,-0.75,3.986,8/8/2020 20:29
0,6,6048.43,1460.06,0.304,-0.75,3.959,8/8/2020 20:33
0,6,6288.43,1700.06,0.354,-0.75,3.931,8/8/2020 20:37
0,6,6528.43,1940.06,0.404,-0.75,3.902,8/8/2020 20:41
0,6,6768.43,2180.06,0.454,-0.75,3.874,8/8/2020 20:45
0,6,7008.43,2420.06,0.504,-0.75,3.848,8/8/2020 20:49
0,6,7248.43,2660.06,0.554,-0.75,3.823,8/8/2020 20:53
0,6,7488.43,2900.06,0.604,-0.75,3.798,8/8/2020 20:57
0,6,7728.43,3140.06,0.654,-0.75,3.77,8/8/2020 21:01
0,6,7968.43,3380.06,0.704,-0.75,3.737,8/8/2020 21:05
0,6,8208.43,3620.06,0.754,-0.75,3.699,8/8/2020 21:09
0,6,8448.43,3860.06,0.804,-0.75,3.663,8/8/2020 21:13
0,6,8688.43,4100.06,0.854,-0.75,3.633,8/8/2020 21:17
0,6,8928.43,4340.06,0.904,-0.75,3.608,8/8/2020 21:21
0,6,9168.43,4580.06,0.954,-0.75,3.588,8/8/2020 21:25
0,6,9408.43,4820.06,1.004,-0.75,3.57,8/8/2020 21:29
0,6,9648.43,5060.06,1.054,-0.75,3.552,8/8/2020 21:33
0,6,9888.43,5300.06,1.104,-0.75,3.533,8/8/2020 21:37
0,6,10128.43,5540.06,1.154,-0.75,3.508,8/8/2020 21:41
0,6,10368.43,5780.06,1.204,-0.75,3.479,8/8/2020 21:45
0,6,10608.43,6020.06,1.254,-0.75,3.453,8/8/2020 21:49
0,6,10848.43,6260.06,1.304,-0.75,3.425,8/8/2020 21:53
0,6,11088.43,6500.06,1.354,-0.75,3.374,8/8/2020 21:57
0,6,11328.43,6740.06,1.404,-0.75,3.18,8/8/2020 22:01
0,3,11542.69,60.03,0.012,0.75,3.262,8/8/2020 22:05
0,3,11782.69,300.03,0.062,0.75,3.507,8/8/2020 22:09
0,3,12022.69,540.03,0.112,0.75,3.539,8/8/2020 22:13
0,3,12262.69,780.03,0.162,0.75,3.559,8/8/2020 22:17
0,3,12502.69,1020.03,0.212,0.75,3.585,8/8/2020 22:21
0,3,12742.69,1260.03,0.262,0.75,3.615,8/8/2020 22:25
0,3,12982.69,1500.03,0.312,0.75,3.644,8/8/2020 22:29
0,3,13222.69,1740.03,0.362,0.75,3.665,8/8/2020 22:33
0,3,13462.69,1980.03,0.412,0.75,3.678,8/8/2020 22:37
0,3,13702.69,2220.03,0.462,0.75,3.692,8/8/2020 22:41
0,3,13942.69,2460.03,0.512,0.75,3.709,8/8/2020 22:45
0,3,14182.69,2700.03,0.562,0.75,3.732,8/8/2020 22:49
0,3,14422.69,2940.03,0.612,0.75,3.761,8/8/2020 22:53
0,3,14662.69,3180.03,0.662,0.75,3.796,8/8/2020 22:57
0,3,14902.69,3420.03,0.712,0.75,3.834,8/8/2020 23:01
0,3,15142.69,3660.03,0.762,0.75,3.871,8/8/2020 23:05
0,3,15382.69,3900.03,0.812,0.75,3.903,8/8/2020 23:09
0,3,15622.69,4140.03,0.862,0.75,3.93,8/8/2020 23:13
0,3,15862.69,4380.03,0.912,0.75,3.954,8/8/2020 23:17
0,3,16102.69,4620.03,0.962,0.75,3.978,8/8/2020 23:21
0,3,16342.69,4860.03,1.012,0.75,4.002,8/8/2020 23:25
0,3,16582.69,5100.03,1.062,0.75,4.028,8/8/2020 23:29
0,3,16822.69,5340.03,1.112,0.75,4.056,8/8/2020 23:33
0,3,17062.69,5580.03,1.162,0.75,4.084,8/8/2020 23:37
0,3,17302.69,5820.03,1.212,0.75,4.108,8/8/2020 23:41
0,3,17542.69,6060.03,1.262,0.75,4.132,8/8/2020 23:45
0,3,17782.69,6300.03,1.312,0.75,4.16,8/8/2020 23:49
0,3,18022.69,6540.03,1.362,0.75,4.193,8/8/2020 23:53
0,4,18249.83,180.03,1.4,0.404,4.201,8/8/2020 23:56
0,4,18489.83,420.03,1.42,0.226,4.2,8/9/2020 0:00
0,4,18729.83,660.03,1.432,0.135,4.2,8/9/2020 0:04
0,6,18939.28,50.01,0.01,-0.75,4.153,8/9/2020 0:08
0,6,19179.28,290.01,0.06,-0.75,4.101,8/9/2020 0:12
0,6,19419.28,530.01,0.11,-0.75,4.063,8/9/2020 0:16
0,6,19659.28,770.01,0.16,-0.75,4.033,8/9/2020 0:20
0,6,19899.28,1010.01,0.21,-0.75,4.008,8/9/2020 0:24
0,6,20139.28,1250.01,0.26,-0.75,3.983,8/9/2020 0:28
0,6,20379.28,1490.01,0.31,-0.75,3.957,8/9/2020 0:32
0,6,20619.28,1730.01,0.36,-0.75,3.929,8/9/2020 0:36
0,6,20859.28,1970.01,0.41,-0.75,3.9,8/9/2020 0:40
0,6,21099.28,2210.01,0.46,-0.75,3.872,8/9/2020 0:44
0,6,21339.28,2450.01,0.51,-0.75,3.845,8/9/2020 0:48
0,6,21579.28,2690.01,0.56,-0.75,3.82,8/9/2020 0:52
0,6,21819.28,2930.01,0.61,-0.75,3.795,8/9/2020 0:56
0,6,22059.28,3170.01,0.66,-0.75,3.767,8/9/2020 1:00
0,6,22299.28,3410.01,0.71,-0.75,3.733,8/9/2020 1:04
0,6,22539.28,3650.01,0.76,-0.75,3.697,8/9/2020 1:08
0,6,22779.28,3890.01,0.81,-0.75,3.662,8/9/2020 1:12
0,6,23019.28,4130.01,0.86,-0.75,3.632,8/9/2020 1:16
0,6,23259.28,4370.01,0.91,-0.75,3.609,8/9/2020 1:20
0,6,23499.28,4610.01,0.96,-0.75,3.589,8/9/2020 1:24
0,6,23739.28,4850.01,1.01,-0.75,3.571,8/9/2020 1:28
0,6,23979.28,5090.01,1.06,-0.75,3.554,8/9/2020 1:32
0,6,24219.28,5330.01,1.11,-0.75,3.533,8/9/2020 1:36
0,6,24459.28,5570.01,1.16,-0.75,3.508,8/9/2020 1:40
0,6,24699.28,5810.01,1.21,-0.75,3.478,8/9/2020 1:44
0,6,24939.28,6050.01,1.26,-0.75,3.453,8/9/2020 1:48
0,6,25179.28,6290.01,1.31,-0.75,3.425,8/9/2020 1:52
0,6,25419.28,6530.01,1.36,-0.75,3.37,8/9/2020 1:56
0,6,25659.28,6770.01,1.41,-0.75,3.152,8/9/2020 2:00
0,3,25872.46,80.01,0.017,0.75,3.293,8/9/2020 2:03
0,3,26112.46,320.01,0.067,0.75,3.512,8/9/2020 2:07
0,3,26352.46,560.01,0.117,0.75,3.539,8/9/2020 2:11
0,3,26592.46,800.01,0.167,0.75,3.56,8/9/2020 2:15
0,3,26832.46,1040.01,0.217,0.75,3.586,8/9/2020 2:19
0,3,27072.46,1280.01,0.267,0.75,3.616,8/9/2020 2:23
0,3,27312.46,1520.01,0.317,0.75,3.645,8/9/2020 2:27
0,3,27552.46,1760.01,0.367,0.75,3.665,8/9/2020 2:31
0,3,27792.46,2000.01,0.417,0.75,3.678,8/9/2020 2:35
0,3,28032.46,2240.01,0.467,0.75,3.692,8/9/2020 2:39
0,3,28272.46,2480.01,0.517,0.75,3.71,8/9/2020 2:43
0,3,28512.46,2720.01,0.567,0.75,3.733,8/9/2020 2:47
0,3,28752.46,2960.01,0.617,0.75,3.762,8/9/2020 2:51
0,3,28992.46,3200.01,0.667,0.75,3.797,8/9/2020 2:55
0,3,29232.46,3440.01,0.717,0.75,3.835,8/9/2020 2:59
0,3,29472.46,3680.01,0.767,0.75,3.872,8/9/2020 3:03
0,3,29712.46,3920.01,0.817,0.75,3.903,8/9/2020 3:07
0,3,29952.46,4160.01,0.867,0.75,3.93,8/9/2020 3:11
0,3,30192.46,4400.01,0.917,0.75,3.954,8/9/2020 3:15
0,3,30432.46,4640.01,0.967,0.75,3.978,8/9/2020 3:19
0,3,30672.46,4880.01,1.017,0.75,4.002,8/9/2020 3:23
0,3,30912.46,5120.01,1.067,0.75,4.029,8/9/2020 3:27
0,3,31152.46,5360.01,1.117,0.75,4.057,8/9/2020 3:31
0,3,31392.46,5600.01,1.167,0.75,4.084,8/9/2020 3:35
0,3,31632.46,5840.01,1.217,0.75,4.109,8/9/2020 3:39
0,3,31872.46,6080.01,1.267,0.75,4.133,8/9/2020 3:43
0,3,32112.46,6320.01,1.317,0.75,4.161,8/9/2020 3:47
0,3,32352.46,6560.01,1.367,0.75,4.194,8/9/2020 3:51
0,4,32578.84,190.03,1.403,0.388,4.2,8/9/2020 3:55
0,4,32818.84,430.03,1.423,0.216,4.2,8/9/2020 3:59
0,4,33058.84,670.03,1.434,0.129,4.2,8/9/2020 4:03
0,6,33266.5,70.01,0.014,-0.75,4.147,8/9/2020 4:07
0,6,33506.5,310.01,0.064,-0.75,4.097,8/9/2020 4:11
0,6,33746.5,550.01,0.114,-0.75,4.061,8/9/2020 4:15
0,6,33986.5,790.01,0.164,-0.75,4.031,8/9/2020 4:19
0,6,34226.5,1030.01,0.214,-0.75,4.006,8/9/2020 4:23
0,6,34466.5,1270.01,0.264,-0.75,3.982,8/9/2020 4:27
0,6,34706.5,1510.01,0.314,-0.75,3.955,8/9/2020 4:31
0,6,34946.5,1750.01,0.364,-0.75,3.927,8/9/2020 4:35
0,6,35186.5,1990.01,0.414,-0.75,3.899,8/9/2020 4:39
0,6,35426.5,2230.01,0.464,-0.75,3.87,8/9/2020 4:43
0,6,35666.5,2470.01,0.514,-0.75,3.844,8/9/2020 4:47
0,6,35906.5,2710.01,0.564,-0.75,3.818,8/9/2020 4:51
0,6,36146.5,2950.01,0.614,-0.75,3.793,8/9/2020 4:55
0,6,36386.5,3190.01,0.664,-0.75,3.764,8/9/2020 4:59
0,6,36626.5,3430.01,0.714,-0.75,3.731,8/9/2020 5:03
0,6,36866.5,3670.01,0.764,-0.75,3.694,8/9/2020 5:07
0,6,37106.5,3910.01,0.814,-0.75,3.66,8/9/2020 5:11
0,6,37346.5,4150.01,0.864,-0.75,3.631,8/9/2020 5:15
0,6,37586.5,4390.01,0.914,-0.75,3.607,8/9/2020 5:19
0,6,37826.5,4630.01,0.964,-0.75,3.588,8/9/2020 5:23
0,6,38066.5,4870.01,1.014,-0.75,3.571,8/9/2020 5:27
0,6,38306.5,5110.01,1.064,-0.75,3.553,8/9/2020 5:31
0,6,38546.5,5350.01,1.114,-0.75,3.533,8/9/2020 5:35
0,6,38786.5,5590.01,1.164,-0.75,3.508,8/9/2020 5:39
0,6,39026.5,5830.01,1.214,-0.75,3.477,8/9/2020 5:43
0,6,39266.5,6070.01,1.264,-0.75,3.452,8/9/2020 5:47
0,6,39506.5,6310.01,1.314,-0.75,3.424,8/9/2020 5:51
0,6,39746.5,6550.01,1.364,-0.75,3.366,8/9/2020 5:55
0,6,39986.5,6790.01,1.414,-0.75,3.128,8/9/2020 5:59
0,3,40196.15,90.01,0.019,0.75,3.302,8/9/2020 6:02
0,3,40436.15,330.01,0.069,0.75,3.514,8/9/2020 6:06
0,3,40676.15,570.01,0.119,0.75,3.539,8/9/2020 6:10
0,3,40916.15,810.01,0.169,0.75,3.56,8/9/2020 6:14
0,3,41156.15,1050.01,0.219,0.75,3.585,8/9/2020 6:18
0,3,41396.15,1290.01,0.269,0.75,3.616,8/9/2020 6:22
0,3,41636.15,1530.01,0.319,0.75,3.644,8/9/2020 6:26
0,3,41876.15,1770.01,0.369,0.75,3.665,8/9/2020 6:30
0,3,42116.15,2010.01,0.419,0.75,3.678,8/9/2020 6:34
0,3,42356.15,2250.01,0.469,0.75,3.692,8/9/2020 6:38
0,3,42596.15,2490.01,0.519,0.75,3.71,8/9/2020 6:42
0,3,42836.15,2730.01,0.569,0.75,3.733,8/9/2020 6:46
0,3,43076.15,2970.01,0.619,0.75,3.762,8/9/2020 6:50
0,3,43316.15,3210.01,0.669,0.75,3.797,8/9/2020 6:54
0,3,43556.15,3450.01,0.719,0.75,3.835,8/9/2020 6:58
0,3,43796.15,3690.01,0.769,0.75,3.871,8/9/2020 7:02
0,3,44036.15,3930.01,0.819,0.75,3.903,8/9/2020 7:06
0,3,44276.15,4170.01,0.869,0.75,3.93,8/9/2020 7:10
0,3,44516.15,4410.01,0.919,0.75,3.954,8/9/2020 7:14
0,3,44756.15,4650.01,0.969,0.75,3.978,8/9/2020 7:18
0,3,44996.15,4890.01,1.019,0.75,4.002,8/9/2020 7:22
0,3,45236.15,5130.01,1.069,0.75,4.029,8/9/2020 7:26
0,3,45476.15,5370.01,1.119,0.75,4.057,8/9/2020 7:30
0,3,45716.15,5610.01,1.169,0.75,4.084,8/9/2020 7:34
0,3,45956.15,5850.01,1.219,0.75,4.108,8/9/2020 7:38
0,3,46196.15,6090.01,1.269,0.75,4.133,8/9/2020 7:42
0,3,46436.15,6330.01,1.319,0.75,4.161,8/9/2020 7:46
0,3,46676.15,6570.01,1.369,0.75,4.194,8/9/2020 7:50
0,4,46901.61,190.03,1.405,0.386,4.2,8/9/2020 7:54
0,4,47141.61,430.03,1.424,0.215,4.2,8/9/2020 7:58
0,4,47381.61,670.03,1.435,0.128,4.2,8/9/2020 8:02
0,6,47587.86,80.01,0.017,-0.75,4.144,8/9/2020 8:05
0,6,47827.86,320.01,0.067,-0.75,4.096,8/9/2020 8:09
0,6,48067.86,560.01,0.117,-0.75,4.06,8/9/2020 8:13
0,6,48307.86,800.01,0.167,-0.75,4.031,8/9/2020 8:17
0,6,48547.86,1040.01,0.217,-0.75,4.006,8/9/2020 8:21
0,6,48787.86,1280.01,0.267,-0.75,3.981,8/9/2020 8:25
0,6,49027.86,1520.01,0.317,-0.75,3.954,8/9/2020 8:29
0,6,49267.86,1760.01,0.367,-0.75,3.927,8/9/2020 8:33
0,6,49507.86,2000.01,0.417,-0.75,3.898,8/9/2020 8:37
0,6,49747.86,2240.01,0.467,-0.75,3.869,8/9/2020 8:41
0,6,49987.86,2480.01,0.517,-0.75,3.843,8/9/2020 8:45
0,6,50227.86,2720.01,0.567,-0.75,3.817,8/9/2020 8:49
0,6,50467.86,2960.01,0.617,-0.75,3.792,8/9/2020 8:53
0,6,50707.86,3200.01,0.667,-0.75,3.763,8/9/2020 8:57
0,6,50947.86,3440.01,0.717,-0.75,3.729,8/9/2020 9:01
0,6,51187.86,3680.01,0.767,-0.75,3.693,8/9/2020 9:05
0,6,51427.86,3920.01,0.817,-0.75,3.659,8/9/2020 9:09
0,6,51667.86,4160.01,0.867,-0.75,3.63,8/9/2020 9:13
0,6,51907.86,4400.01,0.917,-0.75,3.608,8/9/2020 9:17
0,6,52147.86,4640.01,0.967,-0.75,3.589,8/9/2020 9:21
0,6,52387.86,4880.01,1.017,-0.75,3.571,8/9/2020 9:25
0,6,52627.86,5120.01,1.067,-0.75,3.553,8/9/2020 9:29
0,6,52867.86,5360.01,1.117,-0.75,3.533,8/9/2020 9:33
0,6,53107.86,5600.01,1.167,-0.75,3.507,8/9/2020 9:37
0,6,53347.86,5840.01,1.217,-0.75,3.476,8/9/2020 9:41
0,6,53587.86,6080.01,1.267,-0.75,3.452,8/9/2020 9:45
0,6,53827.86,6320.01,1.317,-0.75,3.423,8/9/2020 9:49
0,6,54067.86,6560.01,1.367,-0.75,3.364,8/9/2020 9:53
0,6,54307.86,6800.01,1.417,-0.75,3.116,8/9/2020 9:57
0,3,54521.72,100.01,0.021,0.75,3.312,8/9/2020 10:01
0,3,54761.72,340.01,0.071,0.75,3.515,8/9/2020 10:05
0,3,55001.72,580.01,0.121,0.75,3.539,8/9/2020 10:09
0,3,55241.72,820.01,0.171,0.75,3.56,8/9/2020 10:13
0,3,55481.72,1060.01,0.221,0.75,3.586,8/9/2020 10:17
0,3,55721.72,1300.01,0.271,0.75,3.616,8/9/2020 10:21
0,3,55961.72,1540.01,0.321,0.75,3.645,8/9/2020 10:25
0,3,56201.72,1780.01,0.371,0.75,3.664,8/9/2020 10:29
0,3,56441.72,2020.01,0.421,0.75,3.678,8/9/2020 10:33
0,3,56681.72,2260.01,0.471,0.75,3.692,8/9/2020 10:37
0,3,56921.72,2500.01,0.521,0.75,3.71,8/9/2020 10:41
0,3,57161.72,2740.01,0.571,0.75,3.733,8/9/2020 10:45
0,3,57401.72,2980.01,0.621,0.75,3.762,8/9/2020 10:49
0,3,57641.72,3220.01,0.671,0.75,3.798,8/9/2020 10:53
0,3,57881.72,3460.01,0.721,0.75,3.835,8/9/2020 10:57
0,3,58121.72,3700.01,0.771,0.75,3.871,8/9/2020 11:01
0,3,58361.72,3940.01,0.821,0.75,3.903,8/9/2020 11:05
0,3,58601.72,4180.01,0.871,0.75,3.93,8/9/2020 11:09
0,3,58841.72,4420.01,0.921,0.75,3.954,8/9/2020 11:13
0,3,59081.72,4660.01,0.971,0.75,3.977,8/9/2020 11:17
0,3,59321.72,4900.01,1.021,0.75,4.002,8/9/2020 11:21
0,3,59561.72,5140.01,1.071,0.75,4.029,8/9/2020 11:25
0,3,59801.72,5380.01,1.121,0.75,4.056,8/9/2020 11:29
0,3,60041.72,5620.01,1.171,0.75,4.084,8/9/2020 11:33
0,3,60281.72,5860.01,1.221,0.75,4.108,8/9/2020 11:37
0,3,60521.72,6100.01,1.271,0.75,4.133,8/9/2020 11:41
0,3,60761.72,6340.01,1.321,0.75,4.161,8/9/2020 11:45
0,3,61001.72,6580.01,1.371,0.75,4.194,8/9/2020 11:49
0,4,61225.23,190.03,1.407,0.384,4.201,8/9/2020 11:53
0,4,61465.23,430.03,1.426,0.211,4.2,8/9/2020 11:57
0,4,61705.23,670.03,1.437,0.125,4.2,8/9/2020 12:01
0,6,61919.82,100.01,0.021,-0.75,4.14,8/9/2020 12:04
0,6,62159.82,340.01,0.071,-0.75,4.093,8/9/2020 12:08
0,6,62399.82,580.01,0.121,-0.75,4.057,8/9/2020 12:12
0,6,62639.82,820.01,0.171,-0.75,4.029,8/9/2020 12:16
0,6,62879.82,1060.01,0.221,-0.75,4.004,8/9/2020 12:20
0,6,63119.82,1300.01,0.271,-0.75,3.979,8/9/2020 12:24
0,6,63359.82,1540.01,0.321,-0.75,3.953,8/9/2020 12:28
0,6,63599.82,1780.01,0.371,-0.75,3.925,8/9/2020 12:32
0,6,63839.82,2020.01,0.421,-0.75,3.896,8/9/2020 12:36
0,6,64079.82,2260.01,0.471,-0.75,3.867,8/9/2020 12:40
0,6,64319.82,2500.01,0.521,-0.75,3.84,8/9/2020 12:44
0,6,64559.82,2740.01,0.571,-0.75,3.815,8/9/2020 12:48
0,6,64799.82,2980.01,0.621,-0.75,3.789,8/9/2020 12:52
0,6,65039.82,3220.01,0.671,-0.75,3.761,8/9/2020 12:56
0,6,65279.82,3460.01,0.721,-0.75,3.726,8/9/2020 13:00
0,6,65519.82,3700.01,0.771,-0.75,3.69,8/9/2020 13:04
0,6,65759.82,3940.01,0.821,-0.75,3.657,8/9/2020 13:08
0,6,65999.82,4180.01,0.871,-0.75,3.629,8/9/2020 13:12
0,6,66239.82,4420.01,0.921,-0.75,3.606,8/9/2020 13:16
0,6,66479.82,4660.01,0.971,-0.75,3.587,8/9/2020 13:20
0,6,66719.82,4900.01,1.021,-0.75,3.57,8/9/2020 13:24
0,6,66959.82,5140.01,1.071,-0.75,3.552,8/9/2020 13:28
0,6,67199.82,5380.01,1.121,-0.75,3.532,8/9/2020 13:32
0,6,67439.82,5620.01,1.171,-0.75,3.505,8/9/2020 13:36
0,6,67679.82,5860.01,1.221,-0.75,3.474,8/9/2020 13:40
0,6,67919.82,6100.01,1.271,-0.75,3.45,8/9/2020 13:44
0,6,68159.82,6340.01,1.321,-0.75,3.421,8/9/2020 13:48
0,6,68399.82,6580.01,1.371,-0.75,3.356,8/9/2020 13:52
0,6,68639.82,6820.01,1.421,-0.75,3.078,8/9/2020 13:56
1,11,69281.81,540.01,0.0,0.0,3.098,8/9/2020 14:07
1,11,70721.81,1980.01,0.0,0.0,3.138,8/9/2020 14:31
1,11,72161.81,3420.01,0.0,0.0,3.159,8/9/2020 14:55
1,12,72541.85,200.05,0.008,-0.15,3.048,8/9/2020 15:01
1,12,72781.85,440.05,0.018,-0.15,2.731,8/9/2020 15:05
1,14,72991.25,120.06,0.002,0.075,2.888,8/9/2020 15:09
1,14,73231.25,360.06,0.007,0.075,3.037,8/9/2020 15:13
1,14,73471.25,600.06,0.012,0.075,3.113,8/9/2020 15:17
1,14,73711.25,840.06,0.017,0.075,3.17,8/9/2020 15:21
1,14,73951.25,1080.06,0.022,0.075,3.215,8/9/2020 15:25
1,14,74191.25,1320.06,0.027,0.075,3.254,8/9/2020 15:29
1,14,74431.25,1560.06,0.032,0.075,3.287,8/9/2020 15:33
1,14,74671.25,1800.06,0.037,0.075,3.316,8/9/2020 15:37
1,14,74911.25,2040.06,0.042,0.075,3.342,8/9/2020 15:41
1,14,75151.25,2280.06,0.047,0.075,3.365,8/9/2020 15:45
1,14,75391.25,2520.06,0.052,0.075,3.387,8/9/2020 15:49
1,14,75631.25,2760.06,0.057,0.075,3.406,8/9/2020 15:53
1,14,75871.25,3000.06,0.062,0.075,3.424,8/9/2020 15:57
1,14,76111.25,3240.06,0.067,0.075,3.44,8/9/2020 16:01
1,14,76351.25,3480.06,0.072,0.075,3.455,8/9/2020 16:05
1,14,76591.25,3720.06,0.077,0.075,3.469,8/9/2020 16:09
1,14,76831.25,3960.06,0.082,0.075,3.48,8/9/2020 16:13
1,14,77071.25,4200.06,0.087,0.075,3.486,8/9/2020 16:17
1,14,77311.25,4440.06,0.092,0.075,3.49,8/9/2020 16:21
1,14,77551.25,4680.06,0.097,0.075,3.492,8/9/2020 16:25
1,14,77791.25,4920.06,0.102,0.075,3.493,8/9/2020 16:29
1,14,78031.25,5160.06,0.107,0.075,3.495,8/9/2020 16:33
1,14,78271.25,5400.06,0.112,0.075,3.497,8/9/2020 16:37
1,14,78511.25,5640.06,0.117,0.075,3.498,8/9/2020 16:41
1,14,78751.25,5880.06,0.122,0.075,3.5,8/9/2020 16:45
1,14,78991.25,6120.06,0.127,0.075,3.501,8/9/2020 16:49
1,14,79231.25,6360.06,0.132,0.075,3.503,8/9/2020 16:53
1,14,79471.25,6600.06,0.137,0.075,3.504,8/9/2020 16:57
1,14,79711.25,6840.06,0.142,0.075,3.506,8/9/2020 17:01
1,14,79951.25,7080.06,0.147,0.075,3.507,8/9/2020 17:05
1,14,80191.25,7320.06,0.152,0.075,3.509,8/9/2020 17:09
1,14,80431.25,7560.06,0.157,0.075,3.51,8/9/2020 17:13
1,14,80671.25,7800.06,0.162,0.075,3.512,8/9/2020 17:17
1,14,80911.25,8040.06,0.167,0.075,3.514,8/9/2020 17:21
1,14,81151.25,8280.06,0.172,0.075,3.516,8/9/2020 17:25
1,14,81391.25,8520.06,0.177,0.075,3.517,8/9/2020 17:29
1,14,81631.25,8760.06,0.182,0.075,3.52,8/9/2020 17:33
1,14,81871.25,9000.06,0.187,0.075,3.522,8/9/2020 17:37
1,14,82111.25,9240.06,0.192,0.075,3.524,8/9/2020 17:41
1,14,82351.25,9480.06,0.197,0.075,3.526,8/9/2020 17:45
1,14,82591.25,9720.06,0.202,0.075,3.529,8/9/2020 17:49
1,14,82831.25,9960.06,0.207,0.075,3.531,8/9/2020 17:53
1,14,83071.25,10200.06,0.212,0.075,3.534,8/9/2020 17:57
1,14,83311.25,10440.06,0.217,0.075,3.537,8/9/2020 18:01
1,14,83551.25,10680.06,0.222,0.075,3.539,8/9/2020 18:05
1,14,83791.25,10920.06,0.227,0.075,3.542,8/9/2020 18:09
1,14,84031.25,11160.06,0.232,0.075,3.546,8/9/2020 18:13
1,14,84271.25,11400.06,0.237,0.075,3.549,8/9/2020 18:17
1,14,84511.25,11640.06,0.242,0.075,3.552,8/9/2020 18:21
1,14,84751.25,11880.06,0.247,0.075,3.556,8/9/2020 18:25
1,14,84991.25,12120.06,0.252,0.075,3.559,8/9/2020 18:29
1,14,85231.25,12360.06,0.257,0.075,3.562,8/9/2020 18:33
1,14,85471.25,12600.06,0.262,0.075,3.565,8/9/2020 18:37
1,14,85711.25,12840.06,0.267,0.075,3.568,8/9/2020 18:41
1,14,85951.25,13080.06,0.272,0.075,3.571,8/9/2020 18:45
1,14,86191.25,13320.06,0.277,0.075,3.574,8/9/2020 18:49
1,14,86431.25,13560.06,0.282,0.075,3.578,8/9/2020 18:53
1,14,86671.25,13800.06,0.287,0.075,3.581,8/9/2020 18:57
1,14,86911.25,14040.06,0.292,0.075,3.585,8/9/2020 19:01
1,14,87151.25,14280.06,0.297,0.075,3.588,8/9/2020 19:05
1,14,87391.25,14520.06,0.302,0.075,3.591,8/9/2020 19:09
1,14,87631.25,14760.06,0.307,0.075,3.593,8/9/2020 19:13
1,14,87871.25,15000.06,0.312,0.075,3.596,8/9/2020 19:17
1,14,88111.25,15240.06,0.317,0.075,3.598,8/9/2020 19:21
1,14,88351.25,15480.06,0.322,0.075,3.601,8/9/2020 19:25
1,14,88591.25,15720.06,0.327,0.075,3.604,8/9/2020 19:29
1,14,88831.25,15960.06,0.332,0.075,3.607,8/9/2020 19:33
1,14,89071.25,16200.06,0.337,0.075,3.61,8/9/2020 19:37
1,14,89311.25,16440.06,0.342,0.075,3.613,8/9/2020 19:41
1,14,89551.25,16680.06,0.347,0.075,3.617,8/9/2020 19:45
1,14,89791.25,16920.06,0.352,0.075,3.62,8/9/2020 19:49
1,14,90031.25,17160.06,0.357,0.075,3.622,8/9/2020 19:53
1,14,90271.25,17400.06,0.362,0.075,3.624,8/9/2020 19:57
1,14,90511.25,17640.06,0.367,0.075,3.626,8/9/2020 20:01
1,14,90751.25,17880.06,0.372,0.075,3.627,8/9/2020 20:05
1,14,90991.25,18120.06,0.377,0.075,3.629,8/9/2020 20:09
1,14,91231.25,18360.06,0.382,0.075,3.631,8/9/2020 20:13
1,14,91471.25,18600.06,0.387,0.075,3.632,8/9/2020 20:17
1,14,91711.25,18840.06,0.392,0.075,3.634,8/9/2020 20:21
1,14,91951.25,19080.06,0.397,0.075,3.635,8/9/2020 20:25
1,14,92191.25,19320.06,0.402,0.075,3.636,8/9/2020 20:29
1,14,92431.25,19560.06,0.407,0.075,3.638,8/9/2020 20:33
1,14,92671.25,19800.06,0.412,0.075,3.639,8/9/2020 20:37
1,14,92911.25,20040.06,0.417,0.075,3.64,8/9/2020 20:41
1,14,93151.25,20280.06,0.422,0.075,3.642,8/9/2020 20:45
1,14,93391.25,20520.06,0.427,0.075,3.643,8/9/2020 20:49
1,14,93631.25,20760.06,0.432,0.075,3.644,8/9/2020 20:53
1,14,93871.25,21000.06,0.437,0.075,3.645,8/9/2020 20:57
1,14,94111.25,21240.06,0.442,0.075,3.647,8/9/2020 21:01
1,14,94351.25,21480.06,0.447,0.075,3.648,8/9/2020 21:05
1,14,94591.25,21720.06,0.452,0.075,3.649,8/9/2020 21:09
1,14,94831.25,21960.06,0.457,0.075,3.651,8/9/2020 21:13
1,14,95071.25,22200.06,0.462,0.075,3.652,8/9/2020 21:17
1,14,95311.25,22440.06,0.467,0.075,3.653,8/9/2020 21:21
1,14,95551.25,22680.06,0.472,0.075,3.655,8/9/2020 21:25
1,14,95791.25,22920.06,0.477,0.075,3.656,8/9/2020 21:29
1,14,96031.25,23160.06,0.482,0.075,3.658,8/9/2020 21:33
1,14,96271.25,23400.06,0.487,0.075,3.659,8/9/2020 21:37
1,14,96511.25,23640.06,0.492,0.075,3.661,8/9/2020 21:41
1,14,96751.25,23880.06,0.497,0.075,3.662,8/9/2020 21:45
1,14,96991.25,24120.06,0.502,0.075,3.663,8/9/2020 21:49
1,14,97231.25,24360.06,0.507,0.075,3.665,8/9/2020 21:53
1,14,97471.25,24600.06,0.512,0.075,3.667,8/9/2020 21:57
1,14,97711.25,24840.06,0.517,0.075,3.669,8/9/2020 22:01
1,14,97951.25,25080.06,0.522,0.075,3.67,8/9/2020 22:05
1,14,98191.25,25320.06,0.527,0.075,3.672,8/9/2020 22:09
1,14,98431.25,25560.06,0.532,0.075,3.674,8/9/2020 22:13
1,14,98671.25,25800.06,0.537,0.075,3.676,8/9/2020 22:17
1,14,98911.25,26040.06,0.542,0.075,3.677,8/9/2020 22:21
1,14,99151.25,26280.06,0.547,0.075,3.679,8/9/2020 22:25
1,14,99391.25,26520.06,0.552,0.075,3.681,8/9/2020 22:29
1,14,99631.25,26760.06,0.557,0.075,3.683,8/9/2020 22:33
1,14,99871.25,27000.06,0.562,0.075,3.685,8/9/2020 22:37
1,14,100111.25,27240.06,0.567,0.075,3.688,8/9/2020 22:41
1,14,100351.25,27480.06,0.572,0.075,3.689,8/9/2020 22:45
1,14,100591.25,27720.06,0.577,0.075,3.692,8/9/2020 22:49
1,14,100831.25,27960.06,0.582,0.075,3.694,8/9/2020 22:53
1,14,101071.25,28200.06,0.587,0.075,3.696,8/9/2020 22:57
1,14,101311.25,28440.06,0.592,0.075,3.699,8/9/2020 23:01
1,14,101551.25,28680.06,0.597,0.075,3.701,8/9/2020 23:05
1,14,101791.25,28920.06,0.602,0.075,3.703,8/9/2020 23:09
1,14,102031.25,29160.06,0.607,0.075,3.706,8/9/2020 23:13
1,14,102271.25,29400.06,0.612,0.075,3.709,8/9/2020 23:17
1,14,102511.25,29640.06,0.617,0.075,3.711,8/9/2020 23:21
1,14,102751.25,29880.06,0.622,0.075,3.714,8/9/2020 23:25
1,14,102991.25,30120.06,0.627,0.075,3.717,8/9/2020 23:29
1,14,103231.25,30360.06,0.632,0.075,3.72,8/9/2020 23:33
1,14,103471.25,30600.06,0.637,0.075,3.723,8/9/2020 23:37
1,14,103711.25,30840.06,0.642,0.075,3.726,8/9/2020 23:41
1,14,103951.25,31080.06,0.647,0.075,3.729,8/9/2020 23:45
1,14,104191.25,31320.06,0.652,0.075,3.732,8/9/2020 23:49
1,14,104431.25,31560.06,0.657,0.075,3.735,8/9/2020 23:53
1,14,104671.25,31800.06,0.662,0.075,3.739,8/9/2020 23:57
1,14,104911.25,32040.06,0.667,0.075,3.742,8/10/2020 0:01
1,14,105151.25,32280.06,0.672,0.075,3.745,8/10/2020 0:05
1,14,105391.25,32520.06,0.677,0.075,3.749,8/10/2020 0:09
1,14,105631.25,32760.06,0.682,0.075,3.752,8/10/2020 0:13
1,14,105871.25,33000.06,0.687,0.075,3.756,8/10/2020 0:17
1,14,106111.25,33240.06,0.692,0.075,3.759,8/10/2020 0:21
1,14,106351.25,33480.06,0.697,0.075,3.763,8/10/2020 0:25
1,14,106591.25,33720.06,0.702,0.075,3.766,8/10/2020 0:29
1,14,106831.25,33960.06,0.707,0.075,3.77,8/10/2020 0:33
1,14,107071.25,34200.06,0.712,0.075,3.773,8/10/2020 0:37
1,14,107311.25,34440.06,0.717,0.075,3.777,8/10/2020 0:41
1,14,107551.25,34680.06,0.722,0.075,3.781,8/10/2020 0:45
1,14,107791.25,34920.06,0.727,0.075,3.784,8/10/2020 0:49
1,14,108031.25,35160.06,0.732,0.075,3.788,8/10/2020 0:53
1,14,108271.25,35400.06,0.737,0.075,3.791,8/10/2020 0:57
1,14,108511.25,35640.06,0.742,0.075,3.795,8/10/2020 1:01
1,14,108751.25,35880.06,0.747,0.075,3.798,8/10/2020 1:05
1,14,108991.25,36120.06,0.752,0.075,3.802,8/10/2020 1:09
1,14,109231.25,36360.06,0.757,0.075,3.805,8/10/2020 1:13
1,14,109471.25,36600.06,0.762,0.075,3.808,8/10/2020 1:17
1,14,109711.25,36840.06,0.767,0.075,3.812,8/10/2020 1:21
1,14,109951.25,37080.06,0.772,0.075,3.814,8/10/2020 1:25
1,14,110191.25,37320.06,0.777,0.075,3.818,8/10/2020 1:29
1,14,110431.25,37560.06,0.782,0.075,3.821,8/10/2020 1:33
1,14,110671.25,37800.06,0.787,0.075,3.824,8/10/2020 1:37
1,14,110911.25,38040.06,0.792,0.075,3.827,8/10/2020 1:41
1,14,111151.25,38280.06,0.797,0.075,3.83,8/10/2020 1:45
1,14,111391.25,38520.06,0.802,0.075,3.833,8/10/2020 1:49
1,14,111631.25,38760.06,0.807,0.075,3.836,8/10/2020 1:53
1,14,111871.25,39000.06,0.812,0.075,3.838,8/10/2020 1:57
1,14,112111.25,39240.06,0.817,0.075,3.842,8/10/2020 2:01
1,14,112351.25,39480.06,0.822,0.075,3.844,8/10/2020 2:05
1,14,112591.25,39720.06,0.827,0.075,3.847,8/10/2020 2:09
1,14,112831.25,39960.06,0.832,0.075,3.85,8/10/2020 2:13
1,14,113071.25,40200.06,0.837,0.075,3.853,8/10/2020 2:17
1,14,113311.25,40440.06,0.842,0.075,3.855,8/10/2020 2:21
1,14,113551.25,40680.06,0.847,0.075,3.858,8/10/2020 2:25
1,14,113791.25,40920.06,0.852,0.075,3.861,8/10/2020 2:29
1,14,114031.25,41160.06,0.857,0.075,3.864,8/10/2020 2:33
1,14,114271.25,41400.06,0.862,0.075,3.867,8/10/2020 2:37
1,14,114511.25,41640.06,0.867,0.075,3.87,8/10/2020 2:41
1,14,114751.25,41880.06,0.872,0.075,3.874,8/10/2020 2:45
1,14,114991.25,42120.06,0.877,0.075,3.877,8/10/2020 2:49
1,14,115231.25,42360.06,0.882,0.075,3.881,8/10/2020 2:53
1,14,115471.25,42600.06,0.887,0.075,3.885,8/10/2020 2:57
1,14,115711.25,42840.06,0.892,0.075,3.889,8/10/2020 3:01
1,14,115951.25,43080.06,0.897,0.075,3.893,8/10/2020 3:05
1,14,116191.25,43320.06,0.902,0.075,3.897,8/10/2020 3:09
1,14,116431.25,43560.06,0.907,0.075,3.901,8/10/2020 3:13
1,14,116671.25,43800.06,0.912,0.075,3.905,8/10/2020 3:17
1,14,116911.25,44040.06,0.917,0.075,3.908,8/10/2020 3:21
1,14,117151.25,44280.06,0.922,0.075,3.911,8/10/2020 3:25
1,14,117391.25,44520.06,0.927,0.075,3.914,8/10/2020 3:29
1,14,117631.25,44760.06,0.932,0.075,3.917,8/10/2020 3:33
1,14,117871.25,45000.06,0.937,0.075,3.92,8/10/2020 3:37
1,14,118111.25,45240.06,0.942,0.075,3.922,8/10/2020 3:41
1,14,118351.25,45480.06,0.947,0.075,3.924,8/10/2020 3:45
1,14,118591.25,45720.06,0.952,0.075,3.927,8/10/2020 3:49
1,14,118831.25,45960.06,0.957,0.075,3.929,8/10/2020 3:53
1,14,119071.25,46200.06,0.962,0.075,3.931,8/10/2020 3:57
1,14,119311.25,46440.06,0.967,0.075,3.933,8/10/2020 4:01
1,14,119551.25,46680.06,0.972,0.075,3.936,8/10/2020 4:05
1,14,119791.25,46920.06,0.977,0.075,3.938,8/10/2020 4:09
1,14,120031.25,47160.06,0.982,0.075,3.94,8/10/2020 4:13
1,14,120271.25,47400.06,0.987,0.075,3.942,8/10/2020 4:17
1,14,120511.25,47640.06,0.992,0.075,3.945,8/10/2020 4:21
1,14,120751.25,47880.06,0.997,0.075,3.947,8/10/2020 4:25
1,14,120991.25,48120.06,1.002,0.075,3.949,8/10/2020 4:29
1,14,121231.25,48360.06,1.007,0.075,3.951,8/10/2020 4:33
1,14,121471.25,48600.06,1.012,0.075,3.953,8/10/2020 4:37
1,14,121711.25,48840.06,1.017,0.075,3.955,8/10/2020 4:41
1,14,121951.25,49080.06,1.022,0.075,3.958,8/10/2020 4:45
1,14,122191.25,49320.06,1.027,0.075,3.96,8/10/2020 4:49
1,14,122431.25,49560.06,1.032,0.075,3.962,8/10/2020 4:53
1,14,122671.25,49800.06,1.037,0.075,3.965,8/10/2020 4:57
1,14,122911.25,50040.06,1.042,0.075,3.967,8/10/2020 5:01
1,14,123151.25,50280.06,1.047,0.075,3.97,8/10/2020 5:05
1,14,123391.25,50520.06,1.052,0.075,3.972,8/10/2020 5:09
1,14,123631.25,50760.06,1.057,0.075,3.975,8/10/2020 5:13
1,14,123871.25,51000.06,1.062,0.075,3.977,8/10/2020 5:17
1,14,124111.25,51240.06,1.067,0.075,3.979,8/10/2020 5:21
1,14,124351.25,51480.06,1.072,0.075,3.982,8/10/2020 5:25
1,14,124591.25,51720.06,1.077,0.075,3.985,8/10/2020 5:29
1,14,124831.25,51960.06,1.082,0.075,3.987,8/10/2020 5:33
1,14,125071.25,52200.06,1.087,0.075,3.99,8/10/2020 5:37
1,14,125311.25,52440.06,1.092,0.075,3.992,8/10/2020 5:41
1,14,125551.25,52680.06,1.097,0.075,3.995,8/10/2020 5:45
1,14,125791.25,52920.06,1.102,0.075,3.997,8/10/2020 5:49
1,14,126031.25,53160.06,1.107,0.075,4.0,8/10/2020 5:53
1,14,126271.25,53400.06,1.112,0.075,4.003,8/10/2020 5:57
1,14,126511.25,53640.06,1.117,0.075,4.006,8/10/2020 6:01
1,14,126751.25,53880.06,1.122,0.075,4.008,8/10/2020 6:05
1,14,126991.25,54120.06,1.127,0.075,4.011,8/10/2020 6:09
1,14,127231.25,54360.06,1.132,0.075,4.014,8/10/2020 6:13
1,14,127471.25,54600.06,1.137,0.075,4.016,8/10/2020 6:17
1,14,127711.25,54840.06,1.142,0.075,4.019,8/10/2020 6:21
1,14,127951.25,55080.06,1.147,0.075,4.021,8/10/2020 6:25
1,14,128191.25,55320.06,1.152,0.075,4.024,8/10/2020 6:29
1,14,128431.25,55560.06,1.157,0.075,4.026,8/10/2020 6:33
1,14,128671.25,55800.06,1.162,0.075,4.029,8/10/2020 6:37
1,14,128911.25,56040.06,1.167,0.075,4.032,8/10/2020 6:41
1,14,129151.25,56280.06,1.172,0.075,4.034,8/10/2020 6:45
1,14,129391.25,56520.06,1.177,0.075,4.036,8/10/2020 6:49
1,14,129631.25,56760.06,1.182,0.075,4.039,8/10/2020 6:53
1,14,129871.25,57000.06,1.187,0.075,4.041,8/10/2020 6:57
1,14,130111.25,57240.06,1.192,0.075,4.043,8/10/2020 7:01
1,14,130351.25,57480.06,1.197,0.075,4.046,8/10/2020 7:05
1,14,130591.25,57720.06,1.202,0.075,4.048,8/10/2020 7:09
1,14,130831.25,57960.06,1.207,0.075,4.05,8/10/2020 7:13
1,14,131071.25,58200.06,1.212,0.075,4.052,8/10/2020 7:17
1,14,131311.25,58440.06,1.217,0.075,4.054,8/10/2020 7:21
1,14,131551.25,58680.06,1.222,0.075,4.056,8/10/2020 7:25
1,14,131791.25,58920.06,1.227,0.075,4.058,8/10/2020 7:29
1,14,132031.25,59160.06,1.232,0.075,4.06,8/10/2020 7:33
1,14,132271.25,59400.06,1.237,0.075,4.062,8/10/2020 7:37
1,14,132511.25,59640.06,1.242,0.075,4.064,8/10/2020 7:41
1,14,132751.25,59880.06,1.247,0.075,4.066,8/10/2020 7:45
1,14,132991.25,60120.06,1.252,0.075,4.068,8/10/2020 7:49
1,14,133231.25,60360.06,1.257,0.075,4.07,8/10/2020 7:53
1,14,133471.25,60600.06,1.262,0.075,4.071,8/10/2020 7:57
1,14,133711.25,60840.06,1.267,0.075,4.073,8/10/2020 8:01
1,14,133951.25,61080.06,1.272,0.075,4.075,8/10/2020 8:05
1,14,134191.25,61320.06,1.277,0.075,4.077,8/10/2020 8:09
1,14,134431.25,61560.06,1.282,0.075,4.079,8/10/2020 8:13
1,14,134671.25,61800.06,1.287,0.075,4.081,8/10/2020 8:17
1,14,134911.25,62040.06,1.292,0.075,4.084,8/10/2020 8:21
1,14,135151.25,62280.06,1.297,0.075,4.086,8/10/2020 8:25
1,14,135391.25,62520.06,1.302,0.075,4.088,8/10/2020 8:29
1,14,135631.25,62760.06,1.307,0.075,4.09,8/10/2020 8:33
1,14,135871.25,63000.06,1.312,0.075,4.092,8/10/2020 8:37
1,14,136111.25,63240.06,1.317,0.075,4.094,8/10/2020 8:41
1,14,136351.25,63480.06,1.322,0.075,4.097,8/10/2020 8:45
1,14,136591.25,63720.06,1.327,0.075,4.099,8/10/2020 8:49
1,14,136831.25,63960.06,1.332,0.075,4.102,8/10/2020 8:53
1,14,137071.25,64200.06,1.337,0.075,4.104,8/10/2020 8:57
1,14,137311.25,64440.06,1.342,0.075,4.107,8/10/2020 9:01
1,14,137551.25,64680.06,1.347,0.075,4.109,8/10/2020 9:05
1,14,137791.25,64920.06,1.352,0.075,4.112,8/10/2020 9:09
1,14,138031.25,65160.06,1.357,0.075,4.115,8/10/2020 9:13
1,14,138271.25,65400.06,1.362,0.075,4.118,8/10/2020 9:17
1,14,138511.25,65640.06,1.367,0.075,4.121,8/10/2020 9:21
1,14,138751.25,65880.06,1.372,0.075,4.124,8/10/2020 9:25
1,14,138991.25,66120.06,1.377,0.075,4.127,8/10/2020 9:29
1,14,139231.25,66360.06,1.382,0.075,4.13,8/10/2020 9:33
1,14,139471.25,66600.06,1.387,0.075,4.133,8/10/2020 9:37
1,14,139711.25,66840.06,1.392,0.075,4.136,8/10/2020 9:41
1,14,139951.25,67080.06,1.397,0.075,4.14,8/10/2020 9:45
1,14,140191.25,67320.06,1.402,0.075,4.143,8/10/2020 9:49
1,14,140431.25,67560.06,1.407,0.075,4.147,8/10/2020 9:53
1,14,140671.25,67800.06,1.412,0.075,4.15,8/10/2020 9:57
1,14,140911.25,68040.06,1.417,0.075,4.154,8/10/2020 10:01
1,14,141151.25,68280.06,1.422,0.075,4.158,8/10/2020 10:05
1,14,141391.25,68520.06,1.427,0.075,4.162,8/10/2020 10:09
1,14,141631.25,68760.06,1.432,0.075,4.166,8/10/2020 10:13
1,14,141871.25,69000.06,1.437,0.075,4.169,8/10/2020 10:17
1,14,142111.25,69240.06,1.442,0.075,4.174,8/10/2020 10:21
1,14,142351.25,69480.06,1.447,0.075,4.178,8/10/2020 10:25
1,14,142591.25,69720.06,1.452,0.075,4.182,8/10/2020 10:29
1,14,142831.25,69960.06,1.457,0.075,4.186,8/10/2020 10:33
1,14,143071.25,70200.06,1.462,0.075,4.19,8/10/2020 10:37
1,14,143311.25,70440.06,1.467,0.075,4.195,8/10/2020 10:41
1,14,143551.25,70680.06,1.472,0.075,4.199,8/10/2020 10:45
1,16,143760.89,160.06,0.003,-0.075,4.188,8/10/2020 10:48
1,16,144000.89,400.06,0.008,-0.075,4.181,8/10/2020 10:52
1,16,144240.89,640.06,0.013,-0.075,4.175,8/10/2020 10:56
1,16,144480.89,880.06,0.018,-0.075,4.169,8/10/2020 11:00
1,16,144720.89,1120.06,0.023,-0.075,4.164,8/10/2020 11:04
1,16,144960.89,1360.06,0.028,-0.075,4.159,8/10/2020 11:08
1,16,145200.89,1600.06,0.033,-0.075,4.154,8/10/2020 11:12
1,16,145440.89,1840.06,0.038,-0.075,4.15,8/10/2020 11:16
1,16,145680.89,2080.06,0.043,-0.075,4.146,8/10/2020 11:20
1,16,145920.89,2320.06,0.048,-0.075,4.141,8/10/2020 11:24
1,16,146160.89,2560.06,0.053,-0.075,4.137,8/10/2020 11:28
1,16,146400.89,2800.06,0.058,-0.075,4.133,8/10/2020 11:32
1,16,146640.89,3040.06,0.063,-0.075,4.129,8/10/2020 11:36
1,16,146880.89,3280.06,0.068,-0.075,4.125,8/10/2020 11:40
1,16,147120.89,3520.06,0.073,-0.075,4.122,8/10/2020 11:44
1,16,147360.89,3760.06,0.078,-0.075,4.118,8/10/2020 11:48
1,16,147600.89,4000.06,0.083,-0.075,4.115,8/10/2020 11:52
1,16,147840.89,4240.06,0.088,-0.075,4.111,8/10/2020 11:56
1,16,148080.89,4480.06,0.093,-0.075,4.108,8/10/2020 12:00
1,16,148320.89,4720.06,0.098,-0.075,4.105,8/10/2020 12:04
1,16,148560.89,4960.06,0.103,-0.075,4.101,8/10/2020 12:08
1,16,148800.89,5200.06,0.108,-0.075,4.098,8/10/2020 12:12
1,16,149040.89,5440.06,0.113,-0.075,4.096,8/10/2020 12:16
1,16,149280.89,5680.06,0.118,-0.075,4.092,8/10/2020 12:20
1,16,149520.89,5920.06,0.123,-0.075,4.09,8/10/2020 12:24
1,16,149760.89,6160.06,0.128,-0.075,4.087,8/10/2020 12:28
1,16,150000.89,6400.06,0.133,-0.075,4.084,8/10/2020 12:32
1,16,150240.89,6640.06,0.138,-0.075,4.081,8/10/2020 12:36
1,16,150480.89,6880.06,0.143,-0.075,4.079,8/10/2020 12:40
1,16,150720.89,7120.06,0.148,-0.075,4.076,8/10/2020 12:44
1,16,150960.89,7360.06,0.153,-0.075,4.074,8/10/2020 12:48
1,16,151200.89,7600.06,0.158,-0.075,4.072,8/10/2020 12:52
1,16,151440.89,7840.06,0.163,-0.075,4.069,8/10/2020 12:56
1,16,151680.89,8080.06,0.168,-0.075,4.067,8/10/2020 13:00
1,16,151920.89,8320.06,0.173,-0.075,4.065,8/10/2020 13:04
1,16,152160.89,8560.06,0.178,-0.075,4.062,8/10/2020 13:08
1,16,152400.89,8800.06,0.183,-0.075,4.061,8/10/2020 13:12
1,16,152640.89,9040.06,0.188,-0.075,4.058,8/10/2020 13:16
1,16,152880.89,9280.06,0.193,-0.075,4.056,8/10/2020 13:20
1,16,153120.89,9520.06,0.198,-0.075,4.054,8/10/2020 13:24
1,16,153360.89,9760.06,0.203,-0.075,4.052,8/10/2020 13:28
1,16,153600.89,10000.06,0.208,-0.075,4.05,8/10/2020 13:32
1,16,153840.89,10240.06,0.213,-0.075,4.048,8/10/2020 13:36
1,16,154080.89,10480.06,0.218,-0.075,4.046,8/10/2020 13:40
1,16,154320.89,10720.06,0.223,-0.075,4.044,8/10/2020 13:44
1,16,154560.89,10960.06,0.228,-0.075,4.042,8/10/2020 13:48
1,16,154800.89,11200.06,0.233,-0.075,4.04,8/10/2020 13:52
1,16,155040.89,11440.06,0.238,-0.075,4.038,8/10/2020 13:56
1,16,155280.89,11680.06,0.243,-0.075,4.036,8/10/2020 14:00
1,16,155520.89,11920.06,0.248,-0.075,4.034,8/10/2020 14:04
1,16,155760.89,12160.06,0.253,-0.075,4.032,8/10/2020 14:08
1,16,156000.89,12400.06,0.258,-0.075,4.03,8/10/2020 14:12
1,16,156240.89,12640.06,0.263,-0.075,4.028,8/10/2020 14:16
1,16,156480.89,12880.06,0.268,-0.075,4.026,8/10/2020 14:20
1,16,156720.89,13120.06,0.273,-0.075,4.023,8/10/2020 14:24
1,16,156960.89,13360.06,0.278,-0.075,4.021,8/10/2020 14:28
1,16,157200.89,13600.06,0.283,-0.075,4.019,8/10/2020 14:32
1,16,157440.89,13840.06,0.288,-0.075,4.016,8/10/2020 14:36
1,16,157680.89,14080.06,0.293,-0.075,4.014,8/10/2020 14:40
1,16,157920.89,14320.06,0.298,-0.075,4.011,8/10/2020 14:44
1,16,158160.89,14560.06,0.303,-0.075,4.009,8/10/2020 14:48
1,16,158400.89,14800.06,0.308,-0.075,4.006,8/10/2020 14:52
1,16,158640.89,15040.06,0.313,-0.075,4.004,8/10/2020 14:56
1,16,158880.89,15280.06,0.318,-0.075,4.001,8/10/2020 15:00
1,16,159120.89,15520.06,0.323,-0.075,3.998,8/10/2020 15:04
1,16,159360.89,15760.06,0.328,-0.075,3.996,8/10/2020 15:08
1,16,159600.89,16000.06,0.333,-0.075,3.993,8/10/2020 15:12
1,16,159840.89,16240.06,0.338,-0.075,3.99,8/10/2020 15:16
1,16,160080.89,16480.06,0.343,-0.075,3.987,8/10/2020 15:20
1,16,160320.89,16720.06,0.348,-0.075,3.985,8/10/2020 15:24
1,16,160560.89,16960.06,0.353,-0.075,3.982,8/10/2020 15:28
1,16,160800.89,17200.06,0.358,-0.075,3.979,8/10/2020 15:32
1,16,161040.89,17440.06,0.363,-0.075,3.976,8/10/2020 15:36
1,16,161280.89,17680.06,0.368,-0.075,3.974,8/10/2020 15:40
1,16,161520.89,17920.06,0.373,-0.075,3.971,8/10/2020 15:44
1,16,161760.89,18160.06,0.378,-0.075,3.968,8/10/2020 15:48
1,16,162000.89,18400.06,0.383,-0.075,3.965,8/10/2020 15:52
1,16,162240.89,18640.06,0.388,-0.075,3.963,8/10/2020 15:56
1,16,162480.89,18880.06,0.393,-0.075,3.96,8/10/2020 16:00
1,16,162720.89,19120.06,0.398,-0.075,3.957,8/10/2020 16:04
1,16,162960.89,19360.06,0.403,-0.075,3.954,8/10/2020 16:08
1,16,163200.89,19600.06,0.408,-0.075,3.952,8/10/2020 16:12
1,16,163440.89,19840.06,0.413,-0.075,3.949,8/10/2020 16:16
1,16,163680.89,20080.06,0.418,-0.075,3.947,8/10/2020 16:20
1,16,163920.89,20320.06,0.423,-0.075,3.944,8/10/2020 16:24
1,16,164160.89,20560.06,0.428,-0.075,3.941,8/10/2020 16:28
1,16,164400.89,20800.06,0.433,-0.075,3.938,8/10/2020 16:32
1,16,164640.89,21040.06,0.438,-0.075,3.936,8/10/2020 16:36
1,16,164880.89,21280.06,0.443,-0.075,3.933,8/10/2020 16:40
1,16,165120.89,21520.06,0.448,-0.075,3.931,8/10/2020 16:44
1,16,165360.89,21760.06,0.453,-0.075,3.928,8/10/2020 16:48
1,16,165600.89,22000.06,0.458,-0.075,3.926,8/10/2020 16:52
1,16,165840.89,22240.06,0.463,-0.075,3.923,8/10/2020 16:56
1,16,166080.89,22480.06,0.468,-0.075,3.921,8/10/2020 17:00
1,16,166320.89,22720.06,0.473,-0.075,3.918,8/10/2020 17:04
1,16,166560.89,22960.06,0.478,-0.075,3.916,8/10/2020 17:08
1,16,166800.89,23200.06,0.483,-0.075,3.913,8/10/2020 17:12
1,16,167040.89,23440.06,0.488,-0.075,3.91,8/10/2020 17:16
1,16,167280.89,23680.06,0.493,-0.075,3.908,8/10/2020 17:20
1,16,167520.89,23920.06,0.498,-0.075,3.905,8/10/2020 17:24
1,16,167760.89,24160.06,0.503,-0.075,3.902,8/10/2020 17:28
1,16,168000.89,24400.06,0.508,-0.075,3.899,8/10/2020 17:32
1,16,168240.89,24640.06,0.513,-0.075,3.896,8/10/2020 17:36
1,16,168480.89,24880.06,0.518,-0.075,3.893,8/10/2020 17:40
1,16,168720.89,25120.06,0.523,-0.075,3.89,8/10/2020 17:44
1,16,168960.89,25360.06,0.528,-0.075,3.886,8/10/2020 17:48
1,16,169200.89,25600.06,0.533,-0.075,3.883,8/10/2020 17:52
1,16,169440.89,25840.06,0.538,-0.075,3.879,8/10/2020 17:56
1,16,169680.89,26080.06,0.543,-0.075,3.876,8/10/2020 18:00
1,16,169920.89,26320.06,0.548,-0.075,3.872,8/10/2020 18:04
1,16,170160.89,26560.06,0.553,-0.075,3.869,8/10/2020 18:08
1,16,170400.89,26800.06,0.558,-0.075,3.865,8/10/2020 18:12
1,16,170640.89,27040.06,0.563,-0.075,3.861,8/10/2020 18:16
1,16,170880.89,27280.06,0.568,-0.075,3.858,8/10/2020 18:20
1,16,171120.89,27520.06,0.573,-0.075,3.854,8/10/2020 18:24
1,16,171360.89,27760.06,0.578,-0.075,3.851,8/10/2020 18:28
1,16,171600.89,28000.06,0.583,-0.075,3.847,8/10/2020 18:32
1,16,171840.89,28240.06,0.588,-0.075,3.844,8/10/2020 18:36
1,16,172080.89,28480.06,0.593,-0.075,3.841,8/10/2020 18:40
1,16,172320.89,28720.06,0.598,-0.075,3.838,8/10/2020 18:44
1,16,172560.89,28960.06,0.603,-0.075,3.835,8/10/2020 18:48
1,16,172800.89,29200.06,0.608,-0.075,3.832,8/10/2020 18:52
1,16,173040.89,29440.06,0.613,-0.075,3.829,8/10/2020 18:56
1,16,173280.89,29680.06,0.618,-0.075,3.826,8/10/2020 19:00
1,16,173520.89,29920.06,0.623,-0.075,3.823,8/10/2020 19:04
1,16,173760.89,30160.06,0.628,-0.075,3.821,8/10/2020 19:08
1,16,174000.89,30400.06,0.633,-0.075,3.818,8/10/2020 19:12
1,16,174240.89,30640.06,0.638,-0.075,3.815,8/10/2020 19:16
1,16,174480.89,30880.06,0.643,-0.075,3.813,8/10/2020 19:20
1,16,174720.89,31120.06,0.648,-0.075,3.81,8/10/2020 19:24
1,16,174960.89,31360.06,0.653,-0.075,3.807,8/10/2020 19:28
1,16,175200.89,31600.06,0.658,-0.075,3.804,8/10/2020 19:32
1,16,175440.89,31840.06,0.663,-0.075,3.801,8/10/2020 19:36
1,16,175680.89,32080.06,0.668,-0.075,3.799,8/10/2020 19:40
1,16,175920.89,32320.06,0.673,-0.075,3.796,8/10/2020 19:44
1,16,176160.89,32560.06,0.678,-0.075,3.793,8/10/2020 19:48
1,16,176400.89,32800.06,0.683,-0.075,3.79,8/10/2020 19:52
1,16,176640.89,33040.06,0.688,-0.075,3.787,8/10/2020 19:56
1,16,176880.89,33280.06,0.693,-0.075,3.783,8/10/2020 20:00
1,16,177120.89,33520.06,0.698,-0.075,3.78,8/10/2020 20:04
1,16,177360.89,33760.06,0.703,-0.075,3.777,8/10/2020 20:08
1,16,177600.89,34000.06,0.708,-0.075,3.774,8/10/2020 20:12
1,16,177840.89,34240.06,0.713,-0.075,3.771,8/10/2020 20:16
1,16,178080.89,34480.06,0.718,-0.075,3.767,8/10/2020 20:20
1,16,178320.89,34720.06,0.723,-0.075,3.764,8/10/2020 20:24
1,16,178560.89,34960.06,0.728,-0.075,3.761,8/10/2020 20:28
1,16,178800.89,35200.06,0.733,-0.075,3.758,8/10/2020 20:32
1,16,179040.89,35440.06,0.738,-0.075,3.754,8/10/2020 20:36
1,16,179280.89,35680.06,0.743,-0.075,3.751,8/10/2020 20:40
1,16,179520.89,35920.06,0.748,-0.075,3.747,8/10/2020 20:44
1,16,179760.89,36160.06,0.753,-0.075,3.744,8/10/2020 20:48
1,16,180000.89,36400.06,0.758,-0.075,3.741,8/10/2020 20:52
1,16,180240.89,36640.06,0.763,-0.075,3.737,8/10/2020 20:56
1,16,180480.89,36880.06,0.768,-0.075,3.734,8/10/2020 21:00
1,16,180720.89,37120.06,0.773,-0.075,3.73,8/10/2020 21:04
1,16,180960.89,37360.06,0.778,-0.075,3.727,8/10/2020 21:08
1,16,181200.89,37600.06,0.783,-0.075,3.723,8/10/2020 21:12
1,16,181440.89,37840.06,0.788,-0.075,3.72,8/10/2020 21:16
1,16,181680.89,38080.06,0.793,-0.075,3.717,8/10/2020 21:20
1,16,181920.89,38320.06,0.798,-0.075,3.714,8/10/2020 21:24
1,16,182160.89,38560.06,0.803,-0.075,3.71,8/10/2020 21:28
1,16,182400.89,38800.06,0.808,-0.075,3.707,8/10/2020 21:32
1,16,182640.89,39040.06,0.813,-0.075,3.704,8/10/2020 21:36
1,16,182880.89,39280.06,0.818,-0.075,3.701,8/10/2020 21:40
1,16,183120.89,39520.06,0.823,-0.075,3.698,8/10/2020 21:44
1,16,183360.89,39760.06,0.828,-0.075,3.695,8/10/2020 21:48
1,16,183600.89,40000.06,0.833,-0.075,3.692,8/10/2020 21:52
1,16,183840.89,40240.06,0.838,-0.075,3.689,8/10/2020 21:56
1,16,184080.89,40480.06,0.843,-0.075,3.686,8/10/2020 22:00
1,16,184320.89,40720.06,0.848,-0.075,3.683,8/10/2020 22:04
1,16,184560.89,40960.06,0.853,-0.075,3.681,8/10/2020 22:08
1,16,184800.89,41200.06,0.858,-0.075,3.678,8/10/2020 22:12
1,16,185040.89,41440.06,0.863,-0.075,3.676,8/10/2020 22:16
1,16,185280.89,41680.06,0.868,-0.075,3.673,8/10/2020 22:20
1,16,185520.89,41920.06,0.873,-0.075,3.671,8/10/2020 22:24
1,16,185760.89,42160.06,0.878,-0.075,3.668,8/10/2020 22:28
1,16,186000.89,42400.06,0.883,-0.075,3.666,8/10/2020 22:32
1,16,186240.89,42640.06,0.888,-0.075,3.664,8/10/2020 22:36
1,16,186480.89,42880.06,0.893,-0.075,3.661,8/10/2020 22:40
1,16,186720.89,43120.06,0.898,-0.075,3.66,8/10/2020 22:44
1,16,186960.89,43360.06,0.903,-0.075,3.657,8/10/2020 22:48
1,16,187200.89,43600.06,0.908,-0.075,3.655,8/10/2020 22:52
1,16,187440.89,43840.06,0.913,-0.075,3.653,8/10/2020 22:56
1,16,187680.89,44080.06,0.918,-0.075,3.651,8/10/2020 23:00
1,16,187920.89,44320.06,0.923,-0.075,3.649,8/10/2020 23:04
1,16,188160.89,44560.06,0.928,-0.075,3.647,8/10/2020 23:08
1,16,188400.89,44800.06,0.933,-0.075,3.645,8/10/2020 23:12
1,16,188640.89,45040.06,0.938,-0.075,3.644,8/10/2020 23:16
1,16,188880.89,45280.06,0.943,-0.075,3.642,8/10/2020 23:20
1,16,189120.89,45520.06,0.948,-0.075,3.64,8/10/2020 23:24
1,16,189360.89,45760.06,0.953,-0.075,3.638,8/10/2020 23:28
1,16,189600.89,46000.06,0.958,-0.075,3.637,8/10/2020 23:32
1,16,189840.89,46240.06,0.963,-0.075,3.635,8/10/2020 23:36
1,16,190080.89,46480.06,0.968,-0.075,3.633,8/10/2020 23:40
1,16,190320.89,46720.06,0.973,-0.075,3.632,8/10/2020 23:44
1,16,190560.89,46960.06,0.978,-0.075,3.63,8/10/2020 23:48
1,16,190800.89,47200.06,0.983,-0.075,3.629,8/10/2020 23:52
1,16,191040.89,47440.06,0.988,-0.075,3.627,8/10/2020 23:56
1,16,191280.89,47680.06,0.993,-0.075,3.625,8/11/2020 0:00
1,16,191520.89,47920.06,0.998,-0.075,3.624,8/11/2020 0:04
1,16,191760.89,48160.06,1.003,-0.075,3.622,8/11/2020 0:08
1,16,192000.89,48400.06,1.008,-0.075,3.621,8/11/2020 0:12
1,16,192240.89,48640.06,1.013,-0.075,3.619,8/11/2020 0:16
1,16,192480.89,48880.06,1.018,-0.075,3.618,8/11/2020 0:20
1,16,192720.89,49120.06,1.023,-0.075,3.616,8/11/2020 0:24
1,16,192960.89,49360.06,1.028,-0.075,3.615,8/11/2020 0:28
1,16,193200.89,49600.06,1.033,-0.075,3.613,8/11/2020 0:32
1,16,193440.89,49840.06,1.038,-0.075,3.611,8/11/2020 0:36
1,16,193680.89,50080.06,1.043,-0.075,3.61,8/11/2020 0:40
1,16,193920.89,50320.06,1.048,-0.075,3.608,8/11/2020 0:44
1,16,194160.89,50560.06,1.053,-0.075,3.607,8/11/2020 0:48
1,16,194400.89,50800.06,1.058,-0.075,3.605,8/11/2020 0:52
1,16,194640.89,51040.06,1.063,-0.075,3.603,8/11/2020 0:56
1,16,194880.89,51280.06,1.068,-0.075,3.601,8/11/2020 1:00
1,16,195120.89,51520.06,1.073,-0.075,3.6,8/11/2020 1:04
1,16,195360.89,51760.06,1.078,-0.075,3.598,8/11/2020 1:08
1,16,195600.89,52000.06,1.083,-0.075,3.596,8/11/2020 1:12
1,16,195840.89,52240.06,1.088,-0.075,3.594,8/11/2020 1:16
1,16,196080.89,52480.06,1.093,-0.075,3.592,8/11/2020 1:20
1,16,196320.89,52720.06,1.098,-0.075,3.59,8/11/2020 1:24
1,16,196560.89,52960.06,1.103,-0.075,3.588,8/11/2020 1:28
1,16,196800.89,53200.06,1.108,-0.075,3.586,8/11/2020 1:32
1,16,197040.89,53440.06,1.113,-0.075,3.584,8/11/2020 1:36
1,16,197280.89,53680.06,1.118,-0.075,3.581,8/11/2020 1:40
1,16,197520.89,53920.06,1.123,-0.075,3.579,8/11/2020 1:44
1,16,197760.89,54160.06,1.128,-0.075,3.576,8/11/2020 1:48
1,16,198000.89,54400.06,1.133,-0.075,3.574,8/11/2020 1:52
1,16,198240.89,54640.06,1.138,-0.075,3.572,8/11/2020 1:56
1,16,198480.89,54880.06,1.143,-0.075,3.57,8/11/2020 2:00
1,16,198720.89,55120.06,1.148,-0.075,3.567,8/11/2020 2:04
1,16,198960.89,55360.06,1.153,-0.075,3.565,8/11/2020 2:08
1,16,199200.89,55600.06,1.158,-0.075,3.563,8/11/2020 2:12
1,16,199440.89,55840.06,1.163,-0.075,3.56,8/11/2020 2:16
1,16,199680.89,56080.06,1.168,-0.075,3.558,8/11/2020 2:20
1,16,199920.89,56320.06,1.173,-0.075,3.555,8/11/2020 2:24
1,16,200160.89,56560.06,1.178,-0.075,3.552,8/11/2020 2:28
1,16,200400.89,56800.06,1.183,-0.075,3.549,8/11/2020 2:32
1,16,200640.89,57040.06,1.188,-0.075,3.545,8/11/2020 2:36
1,16,200880.89,57280.06,1.193,-0.075,3.542,8/11/2020 2:40
1,16,201120.89,57520.06,1.198,-0.075,3.538,8/11/2020 2:44
1,16,201360.89,57760.06,1.203,-0.075,3.534,8/11/2020 2:48
1,16,201600.89,58000.06,1.208,-0.075,3.531,8/11/2020 2:52
1,16,201840.89,58240.06,1.213,-0.075,3.527,8/11/2020 2:56
1,16,202080.89,58480.06,1.218,-0.075,3.524,8/11/2020 3:00
1,16,202320.89,58720.06,1.223,-0.075,3.52,8/11/2020 3:04
1,16,202560.89,58960.06,1.228,-0.075,3.517,8/11/2020 3:08
1,16,202800.89,59200.06,1.233,-0.075,3.512,8/11/2020 3:12
1,16,203040.89,59440.06,1.238,-0.075,3.509,8/11/2020 3:16
1,16,203280.89,59680.06,1.243,-0.075,3.506,8/11/2020 3:20
1,16,203520.89,59920.06,1.248,-0.075,3.502,8/11/2020 3:24
1,16,203760.89,60160.06,1.253,-0.075,3.5,8/11/2020 3:28
1,16,204000.89,60400.06,1.258,-0.075,3.498,8/11/2020 3:32
1,16,204240.89,60640.06,1.263,-0.075,3.496,8/11/2020 3:36
1,16,204480.89,60880.06,1.268,-0.075,3.494,8/11/2020 3:40
1,16,204720.89,61120.06,1.273,-0.075,3.492,8/11/2020 3:44
1,16,204960.89,61360.06,1.278,-0.075,3.491,8/11/2020 3:48
1,16,205200.89,61600.06,1.283,-0.075,3.49,8/11/2020 3:52
1,16,205440.89,61840.06,1.288,-0.075,3.488,8/11/2020 3:56
1,16,205680.89,62080.06,1.293,-0.075,3.487,8/11/2020 4:00
1,16,205920.89,62320.06,1.298,-0.075,3.485,8/11/2020 4:04
1,16,206160.89,62560.06,1.303,-0.075,3.484,8/11/2020 4:08
1,16,206400.89,62800.06,1.308,-0.075,3.482,8/11/2020 4:12
1,16,206640.89,63040.06,1.313,-0.075,3.481,8/11/2020 4:16
1,16,206880.89,63280.06,1.318,-0.075,3.479,8/11/2020 4:20
1,16,207120.89,63520.06,1.323,-0.075,3.477,8/11/2020 4:24
1,16,207360.89,63760.06,1.328,-0.075,3.476,8/11/2020 4:28
1,16,207600.89,64000.06,1.333,-0.075,3.474,8/11/2020 4:32
1,16,207840.89,64240.06,1.338,-0.075,3.472,8/11/2020 4:36
1,16,208080.89,64480.06,1.343,-0.075,3.47,8/11/2020 4:40
1,16,208320.89,64720.06,1.348,-0.075,3.468,8/11/2020 4:44
1,16,208560.89,64960.06,1.353,-0.075,3.466,8/11/2020 4:48
1,16,208800.89,65200.06,1.358,-0.075,3.463,8/11/2020 4:52
1,16,209040.89,65440.06,1.363,-0.075,3.461,8/11/2020 4:56
1,16,209280.89,65680.06,1.368,-0.075,3.457,8/11/2020 5:00
1,16,209520.89,65920.06,1.373,-0.075,3.454,8/11/2020 5:04
1,16,209760.89,66160.06,1.378,-0.075,3.45,8/11/2020 5:08
1,16,210000.89,66400.06,1.383,-0.075,3.444,8/11/2020 5:12
1,16,210240.89,66640.06,1.388,-0.075,3.436,8/11/2020 5:16
1,16,210480.89,66880.06,1.393,-0.075,3.424,8/11/2020 5:20
1,16,210720.89,67120.06,1.398,-0.075,3.409,8/11/2020 5:24
1,16,210960.89,67360.06,1.403,-0.075,3.392,8/11/2020 5:28
1,16,211200.89,67600.06,1.408,-0.075,3.374,8/11/2020 5:32
1,16,211440.89,67840.06,1.413,-0.075,3.354,8/11/2020 5:36
1,16,211680.89,68080.06,1.418,-0.075,3.332,8/11/2020 5:40
1,16,211920.89,68320.06,1.423,-0.075,3.307,8/11/2020 5:44
1,16,212160.89,68560.06,1.428,-0.075,3.281,8/11/2020 5:48
1,16,212400.89,68800.06,1.433,-0.075,3.252,8/11/2020 5:52
1,16,212640.89,69040.06,1.438,-0.075,3.22,8/11/2020 5:56
1,16,212880.89,69280.06,1.443,-0.075,3.183,8/11/2020 6:00
1,16,213120.89,69520.06,1.448,-0.075,3.14,8/11/2020 6:04
1,16,213360.89,69760.06,1.453,-0.075,3.089,8/11/2020 6:08
1,16,213600.89,70000.06,1.458,-0.075,3.026,8/11/2020 6:12
1,16,213840.89,70240.06,1.463,-0.075,2.932,8/11/2020 6:16
1,16,214080.89,70480.06,1.468,-0.075,2.679,8/11/2020 6:20
1,17,214230.62,70629.79,1.471,0.0,2.5,8/11/2020 6:23